File: Bright Region Reset/dataproducts/FTIR/Thin mystery glass.csv
Created as New Dataset,Sample 074 By Student Date Tuesday, February 27 2024
cm-1,%T
8000.00,89.56
7995.00,89.66
7990.00,89.47
7985.00,89.64
7980.00,89.65
7975.00,89.66
7970.00,89.74
7965.00,89.67
7960.00,89.73
7955.00,89.56
7950.00,89.62
7945.00,89.75
7940.00,89.66
7935.00,89.66
7930.00,89.71
7925.00,89.69
7920.00,89.71
7915.00,89.82
7910.00,89.78
7905.00,89.74
7900.00,89.82
7895.00,89.76
7890.00,89.74
7885.00,89.79
7880.00,89.78
7875.00,89.79
7870.00,89.80
7865.00,89.79
7860.00,89.73
7855.00,89.72
7850.00,89.82
7845.00,89.87
7840.00,89.82
7835.00,89.77
7830.00,89.78
7825.00,89.85
7820.00,89.86
7815.00,89.72
7810.00,89.70
7805.00,89.74
7800.00,89.76
7795.00,89.79
7790.00,89.81
7785.00,89.73
7780.00,89.73
7775.00,89.70
7770.00,89.69
7765.00,89.74
7760.00,89.68
7755.00,89.83
7750.00,89.76
7745.00,89.77
7740.00,89.72
7735.00,89.75
7730.00,89.75
7725.00,89.79
7720.00,89.78
7715.00,89.78
7710.00,89.53
7705.00,89.53
7700.00,89.79
7695.00,89.84
7690.00,89.80
7685.00,89.76
7680.00,89.71
7675.00,89.70
7670.00,89.77
7665.00,89.75
7660.00,89.81
7655.00,89.84
7650.00,89.84
7645.00,89.68
7640.00,89.70
7635.00,89.67
7630.00,89.75
7625.00,89.82
7620.00,89.87
7615.00,89.69
7610.00,89.75
7605.00,89.63
7600.00,89.70
7595.00,89.75
7590.00,89.78
7585.00,89.82
7580.00,89.82
7575.00,89.79
7570.00,89.81
7565.00,89.81
7560.00,89.78
7555.00,89.87
7550.00,89.86
7545.00,89.80
7540.00,89.78
7535.00,89.81
7530.00,89.79
7525.00,89.81
7520.00,89.71
7515.00,89.76
7510.00,89.77
7505.00,89.65
7500.00,89.57
7495.00,89.64
7490.00,89.54
7485.00,89.64
7480.00,89.73
7475.00,89.66
7470.00,89.62
7465.00,89.68
7460.00,89.75
7455.00,89.67
7450.00,89.69
7445.00,89.65
7440.00,89.67
7435.00,89.69
7430.00,89.71
7425.00,89.60
7420.00,89.60
7415.00,89.65
7410.00,89.68
7405.00,89.59
7400.00,89.56
7395.00,89.63
7390.00,89.59
7385.00,89.55
7380.00,89.49
7375.00,89.51
7370.00,89.49
7365.00,89.46
7360.00,89.39
7355.00,89.33
7350.00,89.28
7345.00,89.25
7340.00,89.17
7335.00,89.18
7330.00,89.10
7325.00,89.02
7320.00,88.92
7315.00,88.86
7310.00,88.86
7305.00,88.82
7300.00,88.81
7295.00,88.79
7290.00,88.70
7285.00,88.61
7280.00,88.56
7275.00,88.53
7270.00,88.51
7265.00,88.46
7260.00,88.50
7255.00,88.48
7250.00,88.38
7245.00,88.30
7240.00,88.35
7235.00,88.34
7230.00,88.30
7225.00,88.30
7220.00,88.31
7215.00,88.24
7210.00,88.19
7205.00,88.15
7200.00,88.15
7195.00,88.18
7190.00,88.17
7185.00,88.11
7180.00,88.16
7175.00,88.16
7170.00,88.07
7165.00,88.03
7160.00,88.01
7155.00,88.00
7150.00,88.00
7145.00,88.00
7140.00,88.03
7135.00,88.08
7130.00,88.07
7125.00,88.03
7120.00,88.01
7115.00,88.00
7110.00,87.99
7105.00,88.00
7100.00,88.04
7095.00,88.02
7090.00,88.07
7085.00,88.02
7080.00,88.04
7075.00,88.02
7070.00,88.04
7065.00,88.06
7060.00,88.03
7055.00,88.10
7050.00,88.05
7045.00,88.10
7040.00,88.07
7035.00,88.11
7030.00,88.11
7025.00,88.18
7020.00,88.17
7015.00,88.17
7010.00,88.21
7005.00,88.21
7000.00,88.20
6995.00,88.19
6990.00,88.20
6985.00,88.19
6980.00,88.22
6975.00,88.20
6970.00,88.22
6965.00,88.23
6960.00,88.25
6955.00,88.25
6950.00,88.27
6945.00,88.29
6940.00,88.28
6935.00,88.29
6930.00,88.29
6925.00,88.33
6920.00,88.32
6915.00,88.32
6910.00,88.34
6905.00,88.35
6900.00,88.36
6895.00,88.39
6890.00,88.39
6885.00,88.38
6880.00,88.42
6875.00,88.40
6870.00,88.42
6865.00,88.45
6860.00,88.45
6855.00,88.46
6850.00,88.48
6845.00,88.51
6840.00,88.51
6835.00,88.53
6830.00,88.50
6825.00,88.53
6820.00,88.52
6815.00,88.55
6810.00,88.53
6805.00,88.54
6800.00,88.56
6795.00,88.54
6790.00,88.53
6785.00,88.55
6780.00,88.59
6775.00,88.57
6770.00,88.60
6765.00,88.59
6760.00,88.61
6755.00,88.60
6750.00,88.63
6745.00,88.65
6740.00,88.62
6735.00,88.66
6730.00,88.67
6725.00,88.68
6720.00,88.69
6715.00,88.70
6710.00,88.69
6705.00,88.71
6700.00,88.72
6695.00,88.75
6690.00,88.75
6685.00,88.76
6680.00,88.79
6675.00,88.81
6670.00,88.81
6665.00,88.80
6660.00,88.82
6655.00,88.83
6650.00,88.83
6645.00,88.84
6640.00,88.84
6635.00,88.85
6630.00,88.83
6625.00,88.86
6620.00,88.84
6615.00,88.87
6610.00,88.85
6605.00,88.86
6600.00,88.87
6595.00,88.88
6590.00,88.89
6585.00,88.89
6580.00,88.90
6575.00,88.90
6570.00,88.91
6565.00,88.93
6560.00,88.93
6555.00,88.92
6550.00,88.97
6545.00,88.95
6540.00,88.97
6535.00,88.97
6530.00,88.96
6525.00,88.98
6520.00,88.97
6515.00,88.99
6510.00,88.99
6505.00,89.02
6500.00,89.05
6495.00,89.03
6490.00,89.05
6485.00,89.05
6480.00,89.07
6475.00,89.09
6470.00,89.08
6465.00,89.06
6460.00,89.07
6455.00,89.09
6450.00,89.06
6445.00,89.06
6440.00,89.07
6435.00,89.08
6430.00,89.07
6425.00,89.10
6420.00,89.07
6415.00,89.10
6410.00,89.11
6405.00,89.12
6400.00,89.13
6395.00,89.12
6390.00,89.11
6385.00,89.12
6380.00,89.14
6375.00,89.12
6370.00,89.15
6365.00,89.16
6360.00,89.16
6355.00,89.17
6350.00,89.17
6345.00,89.17
6340.00,89.17
6335.00,89.19
6330.00,89.20
6325.00,89.20
6320.00,89.19
6315.00,89.23
6310.00,89.23
6305.00,89.23
6300.00,89.24
6295.00,89.24
6290.00,89.25
6285.00,89.22
6280.00,89.25
6275.00,89.22
6270.00,89.22
6265.00,89.24
6260.00,89.23
6255.00,89.24
6250.00,89.26
6245.00,89.25
6240.00,89.26
6235.00,89.28
6230.00,89.25
6225.00,89.27
6220.00,89.28
6215.00,89.28
6210.00,89.27
6205.00,89.28
6200.00,89.29
6195.00,89.29
6190.00,89.30
6185.00,89.29
6180.00,89.31
6175.00,89.30
6170.00,89.31
6165.00,89.32
6160.00,89.31
6155.00,89.33
6150.00,89.32
6145.00,89.36
6140.00,89.36
6135.00,89.37
6130.00,89.36
6125.00,89.37
6120.00,89.37
6115.00,89.38
6110.00,89.38
6105.00,89.36
6100.00,89.36
6095.00,89.36
6090.00,89.37
6085.00,89.37
6080.00,89.37
6075.00,89.37
6070.00,89.36
6065.00,89.39
6060.00,89.39
6055.00,89.40
6050.00,89.38
6045.00,89.41
6040.00,89.39
6035.00,89.41
6030.00,89.41
6025.00,89.41
6020.00,89.41
6015.00,89.42
6010.00,89.43
6005.00,89.41
6000.00,89.44
5995.00,89.43
5990.00,89.44
5985.00,89.44
5980.00,89.45
5975.00,89.47
5970.00,89.48
5965.00,89.48
5960.00,89.49
5955.00,89.50
5950.00,89.50
5945.00,89.51
5940.00,89.52
5935.00,89.53
5930.00,89.54
5925.00,89.55
5920.00,89.54
5915.00,89.55
5910.00,89.56
5905.00,89.56
5900.00,89.57
5895.00,89.57
5890.00,89.56
5885.00,89.57
5880.00,89.59
5875.00,89.59
5870.00,89.60
5865.00,89.63
5860.00,89.63
5855.00,89.63
5850.00,89.64
5845.00,89.65
5840.00,89.64
5835.00,89.62
5830.00,89.62
5825.00,89.62
5820.00,89.61
5815.00,89.60
5810.00,89.60
5805.00,89.60
5800.00,89.62
5795.00,89.60
5790.00,89.61
5785.00,89.61
5780.00,89.61
5775.00,89.61
5770.00,89.60
5765.00,89.61
5760.00,89.60
5755.00,89.61
5750.00,89.60
5745.00,89.62
5740.00,89.63
5735.00,89.62
5730.00,89.63
5725.00,89.62
5720.00,89.64
5715.00,89.65
5710.00,89.65
5705.00,89.65
5700.00,89.64
5695.00,89.63
5690.00,89.62
5685.00,89.62
5680.00,89.61
5675.00,89.62
5670.00,89.61
5665.00,89.61
5660.00,89.61
5655.00,89.61
5650.00,89.61
5645.00,89.60
5640.00,89.62
5635.00,89.61
5630.00,89.61
5625.00,89.61
5620.00,89.63
5615.00,89.63
5610.00,89.63
5605.00,89.64
5600.00,89.64
5595.00,89.64
5590.00,89.63
5585.00,89.64
5580.00,89.62
5575.00,89.63
5570.00,89.62
5565.00,89.63
5560.00,89.63
5555.00,89.61
5550.00,89.63
5545.00,89.61
5540.00,89.64
5535.00,89.63
5530.00,89.64
5525.00,89.64
5520.00,89.64
5515.00,89.64
5510.00,89.64
5505.00,89.65
5500.00,89.64
5495.00,89.67
5490.00,89.65
5485.00,89.65
5480.00,89.67
5475.00,89.66
5470.00,89.66
5465.00,89.66
5460.00,89.66
5455.00,89.65
5450.00,89.67
5445.00,89.67
5440.00,89.68
5435.00,89.68
5430.00,89.66
5425.00,89.68
5420.00,89.68
5415.00,89.66
5410.00,89.67
5405.00,89.67
5400.00,89.67
5395.00,89.66
5390.00,89.67
5385.00,89.67
5380.00,89.66
5375.00,89.67
5370.00,89.68
5365.00,89.69
5360.00,89.69
5355.00,89.70
5350.00,89.70
5345.00,89.69
5340.00,89.68
5335.00,89.69
5330.00,89.67
5325.00,89.70
5320.00,89.69
5315.00,89.71
5310.00,89.69
5305.00,89.69
5300.00,89.70
5295.00,89.69
5290.00,89.70
5285.00,89.68
5280.00,89.70
5275.00,89.70
5270.00,89.69
5265.00,89.69
5260.00,89.70
5255.00,89.71
5250.00,89.69
5245.00,89.71
5240.00,89.69
5235.00,89.69
5230.00,89.69
5225.00,89.69
5220.00,89.68
5215.00,89.68
5210.00,89.71
5205.00,89.69
5200.00,89.70
5195.00,89.69
5190.00,89.69
5185.00,89.70
5180.00,89.69
5175.00,89.70
5170.00,89.70
5165.00,89.71
5160.00,89.70
5155.00,89.72
5150.00,89.71
5145.00,89.72
5140.00,89.73
5135.00,89.73
5130.00,89.73
5125.00,89.73
5120.00,89.74
5115.00,89.73
5110.00,89.73
5105.00,89.73
5100.00,89.74
5095.00,89.74
5090.00,89.73
5085.00,89.75
5080.00,89.74
5075.00,89.76
5070.00,89.75
5065.00,89.75
5060.00,89.75
5055.00,89.75
5050.00,89.75
5045.00,89.74
5040.00,89.75
5035.00,89.75
5030.00,89.75
5025.00,89.74
5020.00,89.74
5015.00,89.74
5010.00,89.73
5005.00,89.75
5000.00,89.74
4995.00,89.75
4990.00,89.74
4985.00,89.75
4980.00,89.76
4975.00,89.76
4970.00,89.77
4965.00,89.75
4960.00,89.76
4955.00,89.76
4950.00,89.76
4945.00,89.76
4940.00,89.76
4935.00,89.76
4930.00,89.75
4925.00,89.76
4920.00,89.76
4915.00,89.77
4910.00,89.77
4905.00,89.76
4900.00,89.77
4895.00,89.76
4890.00,89.77
4885.00,89.76
4880.00,89.77
4875.00,89.76
4870.00,89.77
4865.00,89.76
4860.00,89.77
4855.00,89.77
4850.00,89.76
4845.00,89.77
4840.00,89.75
4835.00,89.75
4830.00,89.76
4825.00,89.75
4820.00,89.76
4815.00,89.75
4810.00,89.76
4805.00,89.76
4800.00,89.77
4795.00,89.76
4790.00,89.76
4785.00,89.77
4780.00,89.76
4775.00,89.77
4770.00,89.77
4765.00,89.79
4760.00,89.81
4755.00,89.84
4750.00,89.87
4745.00,89.88
4740.00,89.92
4735.00,89.93
4730.00,89.95
4725.00,89.95
4720.00,89.95
4715.00,89.95
4710.00,89.93
4705.00,89.91
4700.00,89.87
4695.00,89.87
4690.00,89.89
4685.00,89.90
4680.00,89.90
4675.00,89.89
4670.00,89.89
4665.00,89.87
4660.00,89.87
4655.00,89.85
4650.00,89.83
4645.00,89.83
4640.00,89.81
4635.00,89.79
4630.00,89.77
4625.00,89.75
4620.00,89.73
4615.00,89.71
4610.00,89.68
4605.00,89.66
4600.00,89.64
4595.00,89.61
4590.00,89.59
4585.00,89.56
4580.00,89.53
4575.00,89.50
4570.00,89.46
4565.00,89.44
4560.00,89.41
4555.00,89.40
4550.00,89.38
4545.00,89.36
4540.00,89.35
4535.00,89.33
4530.00,89.33
4525.00,89.30
4520.00,89.30
4515.00,89.29
4510.00,89.28
4505.00,89.28
4500.00,89.27
4495.00,89.27
4490.00,89.27
4485.00,89.28
4480.00,89.27
4475.00,89.28
4470.00,89.29
4465.00,89.29
4460.00,89.30
4455.00,89.31
4450.00,89.31
4445.00,89.33
4440.00,89.33
4435.00,89.34
4430.00,89.35
4425.00,89.36
4420.00,89.37
4415.00,89.37
4410.00,89.38
4405.00,89.39
4400.00,89.39
4395.00,89.40
4390.00,89.41
4385.00,89.41
4380.00,89.41
4375.00,89.42
4370.00,89.43
4365.00,89.44
4360.00,89.44
4355.00,89.45
4350.00,89.46
4345.00,89.46
4340.00,89.47
4335.00,89.47
4330.00,89.48
4325.00,89.48
4320.00,89.48
4315.00,89.49
4310.00,89.48
4305.00,89.49
4300.00,89.49
4295.00,89.50
4290.00,89.50
4285.00,89.51
4280.00,89.52
4275.00,89.52
4270.00,89.53
4265.00,89.52
4260.00,89.53
4255.00,89.53
4250.00,89.54
4245.00,89.55
4240.00,89.55
4235.00,89.55
4230.00,89.55
4225.00,89.54
4220.00,89.54
4215.00,89.54
4210.00,89.53
4205.00,89.53
4200.00,89.53
4195.00,89.53
4190.00,89.53
4185.00,89.52
4180.00,89.52
4175.00,89.52
4170.00,89.52
4165.00,89.51
4160.00,89.51
4155.00,89.50
4150.00,89.50
4145.00,89.49
4140.00,89.47
4135.00,89.46
4130.00,89.45
4125.00,89.44
4120.00,89.43
4115.00,89.42
4110.00,89.42
4105.00,89.41
4100.00,89.39
4095.00,89.38
4090.00,89.37
4085.00,89.36
4080.00,89.35
4075.00,89.34
4070.00,89.33
4065.00,89.32
4060.00,89.31
4055.00,89.30
4050.00,89.28
4045.00,89.27
4040.00,89.26
4035.00,89.25
4030.00,89.24
4025.00,89.23
4020.00,89.22
4015.00,89.21
4010.00,89.21
4005.00,89.21
4000.00,89.20
3995.00,89.20
3990.00,89.19
3985.00,89.19
3980.00,89.18
3975.00,89.17
3970.00,89.16
3965.00,89.15
3960.00,89.15
3955.00,89.14
3950.00,89.13
3945.00,89.12
3940.00,89.12
3935.00,89.12
3930.00,89.12
3925.00,89.12
3920.00,89.10
3915.00,89.11
3910.00,89.11
3905.00,89.08
3900.00,89.09
3895.00,89.10
3890.00,89.09
3885.00,89.09
3880.00,89.08
3875.00,89.07
3870.00,89.06
3865.00,89.05
3860.00,89.05
3855.00,89.02
3850.00,89.04
3845.00,89.04
3840.00,89.03
3835.00,89.05
3830.00,89.02
3825.00,89.01
3820.00,89.01
3815.00,89.00
3810.00,88.98
3805.00,88.97
3800.00,88.95
3795.00,88.95
3790.00,88.93
3785.00,88.91
3780.00,88.90
3775.00,88.86
3770.00,88.83
3765.00,88.80
3760.00,88.76
3755.00,88.72
3750.00,88.68
3745.00,88.63
3740.00,88.61
3735.00,88.55
3730.00,88.47
3725.00,88.38
3720.00,88.27
3715.00,88.13
3710.00,87.95
3705.00,87.73
3700.00,87.43
3695.00,87.04
3690.00,86.57
3685.00,85.92
3680.00,85.16
3675.00,84.28
3670.00,83.30
3665.00,82.21
3660.00,81.09
3655.00,79.84
3650.00,78.62
3645.00,77.33
3640.00,76.12
3635.00,74.94
3630.00,73.81
3625.00,72.73
3620.00,71.75
3615.00,70.83
3610.00,70.00
3605.00,69.26
3600.00,68.60
3595.00,67.98
3590.00,67.44
3585.00,67.00
3580.00,66.57
3575.00,66.19
3570.00,65.87
3565.00,65.59
3560.00,65.37
3555.00,65.15
3550.00,64.98
3545.00,64.87
3540.00,64.73
3535.00,64.63
3530.00,64.53
3525.00,64.48
3520.00,64.43
3515.00,64.40
3510.00,64.36
3505.00,64.36
3500.00,64.37
3495.00,64.37
3490.00,64.38
3485.00,64.41
3480.00,64.45
3475.00,64.47
3470.00,64.55
3465.00,64.58
3460.00,64.61
3455.00,64.65
3450.00,64.69
3445.00,64.76
3440.00,64.82
3435.00,64.92
3430.00,64.97
3425.00,65.01
3420.00,65.07
3415.00,65.15
3410.00,65.23
3405.00,65.29
3400.00,65.41
3395.00,65.44
3390.00,65.52
3385.00,65.55
3380.00,65.63
3375.00,65.69
3370.00,65.80
3365.00,65.84
3360.00,65.88
3355.00,65.93
3350.00,66.02
3345.00,66.05
3340.00,66.12
3335.00,66.15
3330.00,66.18
3325.00,66.25
3320.00,66.27
3315.00,66.31
3310.00,66.37
3305.00,66.44
3300.00,66.40
3295.00,66.44
3290.00,66.44
3285.00,66.42
3280.00,66.42
3275.00,66.44
3270.00,66.45
3265.00,66.40
3260.00,66.37
3255.00,66.36
3250.00,66.33
3245.00,66.30
3240.00,66.25
3235.00,66.24
3230.00,66.19
3225.00,66.14
3220.00,66.10
3215.00,66.05
3210.00,66.00
3205.00,65.94
3200.00,65.88
3195.00,65.81
3190.00,65.75
3185.00,65.68
3180.00,65.61
3175.00,65.54
3170.00,65.46
3165.00,65.38
3160.00,65.30
3155.00,65.22
3150.00,65.15
3145.00,65.04
3140.00,64.97
3135.00,64.86
3130.00,64.78
3125.00,64.68
3120.00,64.63
3115.00,64.54
3110.00,64.41
3105.00,64.30
3100.00,64.20
3095.00,64.09
3090.00,64.01
3085.00,63.92
3080.00,63.84
3075.00,63.71
3070.00,63.60
3065.00,63.51
3060.00,63.39
3055.00,63.30
3050.00,63.22
3045.00,63.13
3040.00,63.03
3035.00,62.94
3030.00,62.83
3025.00,62.74
3020.00,62.65
3015.00,62.59
3010.00,62.49
3005.00,62.37
3000.00,62.29
2995.00,62.21
2990.00,62.12
2985.00,62.03
2980.00,61.94
2975.00,61.85
2970.00,61.73
2965.00,61.62
2960.00,61.52
2955.00,61.45
2950.00,61.40
2945.00,61.34
2940.00,61.24
2935.00,61.13
2930.00,61.02
2925.00,60.85
2920.00,60.68
2915.00,60.70
2910.00,60.81
2905.00,60.85
2900.00,60.85
2895.00,60.84
2890.00,60.83
2885.00,60.82
2880.00,60.81
2875.00,60.81
2870.00,60.78
2865.00,60.75
2860.00,60.72
2855.00,60.65
2850.00,60.56
2845.00,60.69
2840.00,60.84
2835.00,60.89
2830.00,60.92
2825.00,60.96
2820.00,60.99
2815.00,61.04
2810.00,61.08
2805.00,61.13
2800.00,61.19
2795.00,61.25
2790.00,61.31
2785.00,61.36
2780.00,61.42
2775.00,61.49
2770.00,61.56
2765.00,61.63
2760.00,61.70
2755.00,61.78
2750.00,61.86
2745.00,61.94
2740.00,62.01
2735.00,62.09
2730.00,62.18
2725.00,62.26
2720.00,62.35
2715.00,62.44
2710.00,62.53
2705.00,62.62
2700.00,62.71
2695.00,62.80
2690.00,62.90
2685.00,62.99
2680.00,63.09
2675.00,63.19
2670.00,63.29
2665.00,63.39
2660.00,63.49
2655.00,63.59
2650.00,63.70
2645.00,63.80
2640.00,63.90
2635.00,64.01
2630.00,64.12
2625.00,64.23
2620.00,64.34
2615.00,64.44
2610.00,64.54
2605.00,64.64
2600.00,64.74
2595.00,64.84
2590.00,64.94
2585.00,65.04
2580.00,65.12
2575.00,65.20
2570.00,65.28
2565.00,65.34
2560.00,65.40
2555.00,65.45
2550.00,65.50
2545.00,65.53
2540.00,65.56
2535.00,65.57
2530.00,65.57
2525.00,65.55
2520.00,65.53
2515.00,65.49
2510.00,65.44
2505.00,65.37
2500.00,65.28
2495.00,65.18
2490.00,65.05
2485.00,64.91
2480.00,64.75
2475.00,64.58
2470.00,64.39
2465.00,64.18
2460.00,63.95
2455.00,63.69
2450.00,63.42
2445.00,63.13
2440.00,62.84
2435.00,62.52
2430.00,62.19
2425.00,61.85
2420.00,61.48
2415.00,61.10
2410.00,60.71
2405.00,60.31
2400.00,59.89
2395.00,59.47
2390.00,59.03
2385.00,58.58
2380.00,58.16
2375.00,57.79
2370.00,57.37
2365.00,56.89
2360.00,56.39
2355.00,55.86
2350.00,55.28
2345.00,54.69
2340.00,54.07
2335.00,53.40
2330.00,52.72
2325.00,52.03
2320.00,51.29
2315.00,50.51
2310.00,49.69
2305.00,48.85
2300.00,47.98
2295.00,47.09
2290.00,46.16
2285.00,45.18
2280.00,44.18
2275.00,43.14
2270.00,42.06
2265.00,40.95
2260.00,39.81
2255.00,38.65
2250.00,37.47
2245.00,36.26
2240.00,35.04
2235.00,33.81
2230.00,32.58
2225.00,31.35
2220.00,30.12
2215.00,28.90
2210.00,27.69
2205.00,26.49
2200.00,25.31
2195.00,24.16
2190.00,23.03
2185.00,21.94
2180.00,20.88
2175.00,19.85
2170.00,18.87
2165.00,17.94
2160.00,17.04
2155.00,16.19
2150.00,15.39
2145.00,14.64
2140.00,13.93
2135.00,13.26
2130.00,12.65
2125.00,12.08
2120.00,11.56
2115.00,11.08
2110.00,10.65
2105.00,10.26
2100.00,9.90
2095.00,9.60
2090.00,9.32
2085.00,9.08
2080.00,8.86
2075.00,8.67
2070.00,8.50
2065.00,8.34
2060.00,8.17
2055.00,8.00
2050.00,7.81
2045.00,7.61
2040.00,7.37
2035.00,7.10
2030.00,6.80
2025.00,6.47
2020.00,6.10
2015.00,5.71
2010.00,5.30
2005.00,4.88
2000.00,4.45
1995.00,4.04
1990.00,3.64
1985.00,3.26
1980.00,2.90
1975.00,2.58
1970.00,2.28
1965.00,2.02
1960.00,1.78
1955.00,1.57
1950.00,1.38
1945.00,1.22
1940.00,1.08
1935.00,0.95
1930.00,0.84
1925.00,0.74
1920.00,0.66
1915.00,0.59
1910.00,0.52
1905.00,0.46
1900.00,0.41
1895.00,0.36
1890.00,0.32
1885.00,0.28
1880.00,0.25
1875.00,0.22
1870.00,0.19
1865.00,0.17
1860.00,0.15
1855.00,0.13
1850.00,0.11
1845.00,0.10
1840.00,0.08
1835.00,0.07
1830.00,0.07
1825.00,0.06
1820.00,0.05
1815.00,0.04
1810.00,0.04
1805.00,0.03
1800.00,0.03
1795.00,0.03
1790.00,0.03
1785.00,0.02
1780.00,0.02
1775.00,0.02
1770.00,0.02
1765.00,0.02
1760.00,0.02
1755.00,0.02
1750.00,0.02
1745.00,0.02
1740.00,0.02
1735.00,0.03
1730.00,0.03
1725.00,0.03
1720.00,0.04
1715.00,0.04
1710.00,0.04
1705.00,0.04
1700.00,0.05
1695.00,0.05
1690.00,0.05
1685.00,0.05
1680.00,0.05
1675.00,0.05
1670.00,0.04
1665.00,0.04
1660.00,0.04
1655.00,0.04
1650.00,0.03
1645.00,0.03
1640.00,0.03
1635.00,0.03
1630.00,0.02
1625.00,0.02
1620.00,0.02
1615.00,0.02
1610.00,0.02
1605.00,0.02
1600.00,0.02
1595.00,0.02
1590.00,0.02
1585.00,0.02
1580.00,0.02
1575.00,0.02
1570.00,0.03
1565.00,0.03
1560.00,0.03
1555.00,0.04
1550.00,0.04
1545.00,0.04
1540.00,0.04
1535.00,0.05
1530.00,0.05
1525.00,0.05
1520.00,0.05
1515.00,0.05
1510.00,0.05
1505.00,0.05
1500.00,0.04